pos,corr_resp,trials.thisRepN,trials.thisTrialN,trials.thisN,trials.thisIndex,trials_2.thisRepN,trials_2.thisTrialN,trials_2.thisN,trials_2.thisIndex,fixation.started,line1.started,line2.started,line3.started,line4.started,fixation.stopped,probe.started,key_resp.started,key_resp.keys,key_resp.corr,key_resp.rt,participant,session,date,expName,psychopyVersion,frameRate,
-50,x,0,0,0,0,,,,,65.93591400017749,66.88530630086143,66.88530630086143,66.88530630086143,66.88530630086143,66.93532353777528,67.88924965994056,67.88924965994056,x,1,0.40680744156406945,908594,001,2022-09-30_11h52.11.606,Sequential_routine,2022.2.4,59.796997747215734,
150,v,0,1,1,1,,,,,68.33145256769649,69.32674728269558,69.32674728269558,69.32674728269558,69.32674728269558,69.3434990874398,70.33015693138259,70.33015693138259,v,1,0.7815346243878594,908594,001,2022-09-30_11h52.11.606,Sequential_routine,2022.2.4,59.796997747215734,
50,c,0,2,2,2,,,,,71.1331082170268,72.1200591790639,72.1200591790639,72.1200591790639,72.1200591790639,72.1367551374151,73.12330642040297,73.12330642040297,c,1,0.5803469376423891,908594,001,2022-09-30_11h52.11.606,Sequential_routine,2022.2.4,59.796997747215734,
-150,z,0,3,3,3,,,,,73.72544947290044,74.71256404977521,74.71256404977521,74.71256404977521,74.71256404977521,74.72930347775082,75.71584600643928,75.71584600643928,z,1,0.37208094700872607,908594,001,2022-09-30_11h52.11.606,Sequential_routine,2022.2.4,59.796997747215734,
-50,x,1,0,4,0,,,,,76.11715607225369,77.10365875378602,77.10365875378602,77.10365875378602,77.10365875378602,77.12044708508984,78.10769086334903,78.10769086334903,x,1,0.3808563774941831,908594,001,2022-09-30_11h52.11.606,Sequential_routine,2022.2.4,59.796997747215734,
150,v,1,1,5,1,,,,,78.50913767735756,79.49560353045808,79.49560353045808,79.49560353045808,79.49560353045808,79.51225903790828,80.49870949551678,80.49870949551678,v,1,0.35715456462958173,908594,001,2022-09-30_11h52.11.606,Sequential_routine,2022.2.4,59.796997747215734,
50,c,1,2,6,2,,,,,80.8836837367453,81.87052843970014,81.87052843970014,81.87052843970014,81.87052843970014,81.88729443244665,82.87448417554697,82.87448417554697,c,1,0.3498637425764173,908594,001,2022-09-30_11h52.11.606,Sequential_routine,2022.2.4,59.796997747215734,
-150,z,1,3,7,3,,,,,83.24238179733584,84.22878274787172,84.22878274787172,84.22878274787172,84.22878274787172,84.24544700962178,85.23266995868562,85.23266995868562,z,1,0.7116378828595771,908594,001,2022-09-30_11h52.11.606,Sequential_routine,2022.2.4,59.796997747215734,
-50,x,2,0,8,0,,,,,85.96855274525751,86.95488939697361,86.95488939697361,86.95488939697361,86.95488939697361,86.97163908861103,87.95877600404265,87.95877600404265,x,1,0.6894741098408304,908594,001,2022-09-30_11h52.11.606,Sequential_routine,2022.2.4,59.796997747215734,
150,v,2,1,9,1,,,,,88.67769899579116,89.66414039722758,89.66414039722758,89.66414039722758,89.66414039722758,89.68100298914032,90.66782807038908,90.66782807038908,v,1,0.7007577980448332,908594,001,2022-09-30_11h52.11.606,Sequential_routine,2022.2.4,59.796997747215734,
50,c,2,2,10,2,,,,,91.38692856310536,92.37412072118514,92.37412072118514,92.37412072118514,92.37412072118514,92.39096520075418,93.37734079400889,93.37734079400889,c,1,0.4546659889902003,908594,001,2022-09-30_11h52.11.606,Sequential_routine,2022.2.4,59.796997747215734,
-150,z,2,3,11,3,,,,,93.86225321177108,94.84942967248662,94.84942967248662,94.84942967248662,94.84942967248662,94.86622434311039,95.85296308885472,95.85296308885472,z,1,1.1143951249291604,908594,001,2022-09-30_11h52.11.606,Sequential_routine,2022.2.4,59.796997747215734,
-50,x,3,0,12,0,,,,,96.98992138639096,97.97669937554656,97.97669937554656,97.97669937554656,97.97669937554656,97.99345208590785,98.98017875675669,98.98017875675669,x,1,0.4192249624793476,908594,001,2022-09-30_11h52.11.606,Sequential_routine,2022.2.4,59.796997747215734,
150,v,3,1,13,1,,,,,99.43175359484712,100.41829823664239,100.41829823664239,100.41829823664239,100.41829823664239,100.43507932300872,101.42229804585895,101.42229804585895,v,1,0.8736032894903474,908594,001,2022-09-30_11h52.11.606,Sequential_routine,2022.2.4,59.796997747215734,
50,c,3,2,14,2,,,,,102.32524969375027,103.31167147348151,103.31167147348151,103.31167147348151,103.31167147348151,103.32858357246641,104.31514210039177,104.31514210039177,c,1,0.5081641164756547,908594,001,2022-09-30_11h52.11.606,Sequential_routine,2022.2.4,59.796997747215734,
-150,z,3,3,15,3,,,,,104.85045241615626,105.837425414878,105.837425414878,105.837425414878,105.837425414878,105.8542071049892,106.84108773075877,106.84108773075877,z,1,0.49409867416352427,908594,001,2022-09-30_11h52.11.606,Sequential_routine,2022.2.4,59.796997747215734,
-50,x,4,0,16,0,,,,,107.35920550808441,108.34645592753623,108.34645592753623,108.34645592753623,108.34645592753623,108.3632955771468,109.34949487692347,109.34949487692347,x,1,0.4498855377637483,908594,001,2022-09-30_11h52.11.606,Sequential_routine,2022.2.4,59.796997747215734,
150,v,4,1,17,1,,,,,109.817746957277,110.80452645579453,110.80452645579453,110.80452645579453,110.80452645579453,110.82116686962536,111.80842543963172,111.80842543963172,v,1,0.823762044182331,908594,001,2022-09-30_11h52.11.606,Sequential_routine,2022.2.4,59.796997747215734,
50,c,4,2,18,2,,,,,112.66135109630977,113.6481468959364,113.6481468959364,113.6481468959364,113.6481468959364,113.66489749319135,114.65114207382703,114.65114207382703,c,1,0.7807053809228819,908594,001,2022-09-30_11h52.11.606,Sequential_routine,2022.2.4,59.796997747215734,
-150,z,4,3,19,3,,,,,115.45446587000515,116.44118710715065,116.44118710715065,116.44118710715065,116.44118710715065,116.45786917937176,117.44430092089169,117.44430092089169,z,1,0.4036583087527106,908594,001,2022-09-30_11h52.11.606,Sequential_routine,2022.2.4,59.796997747215734,
-50,x,5,0,20,0,,,,,117.8792048560399,118.86587869921959,118.86587869921959,118.86587869921959,118.86587869921959,118.88254537594867,119.86913197800686,119.86913197800686,x,1,0.47452466441063734,908594,001,2022-09-30_11h52.11.606,Sequential_routine,2022.2.4,59.796997747215734,
150,v,5,1,21,1,,,,,120.37110561971667,121.35824102578636,121.35824102578636,121.35824102578636,121.35824102578636,121.37498256686922,122.36140706345168,122.36140706345168,v,1,0.4789226433144904,908594,001,2022-09-30_11h52.11.606,Sequential_routine,2022.2.4,59.796997747215734,
50,c,5,2,22,2,,,,,122.86303294816435,123.8498172766399,123.8498172766399,123.8498172766399,123.8498172766399,123.86650689567114,124.8532205860065,124.8532205860065,c,1,0.5626949494203473,908594,001,2022-09-30_11h52.11.606,Sequential_routine,2022.2.4,59.796997747215734,
-150,z,5,3,23,3,,,,,125.43870028237143,126.4259410419063,126.4259410419063,126.4259410419063,126.4259410419063,126.44268771481984,127.42944427103521,127.42944427103521,z,1,0.3858864771905246,908594,001,2022-09-30_11h52.11.606,Sequential_routine,2022.2.4,59.796997747215734,
-50,x,6,0,24,0,,,,,127.84753029138528,128.83383011466913,128.83383011466913,128.83383011466913,128.83383011466913,128.85057075013447,129.83722678284312,129.83722678284312,x,1,0.5063513727513964,908594,001,2022-09-30_11h52.11.606,Sequential_routine,2022.2.4,59.796997747215734,
150,v,6,1,25,1,,,,,130.37243868820724,131.35971808740896,131.35971808740896,131.35971808740896,131.35971808740896,131.37652332356674,132.36265741890656,132.36265741890656,v,1,0.9891772485289039,908594,001,2022-09-30_11h52.11.606,Sequential_routine,2022.2.4,59.796997747215734,
50,c,6,2,26,2,,,,,133.3829577336387,134.37025584892854,134.37025584892854,134.37025584892854,134.37025584892854,134.38706168883118,135.3737005148132,135.3737005148132,c,1,0.4415161256479223,908594,001,2022-09-30_11h52.11.606,Sequential_routine,2022.2.4,59.796997747215734,
-150,z,6,3,27,3,,,,,135.8417331339365,136.8283496213612,136.8283496213612,136.8283496213612,136.8283496213612,136.84501931681416,137.83173391276705,137.83173391276705,z,1,0.5438046806393686,908594,001,2022-09-30_11h52.11.606,Sequential_routine,2022.2.4,59.796997747215734,
-50,x,7,0,28,0,,,,,138.4006094199881,139.38717730595772,139.38717730595772,139.38717730595772,139.38717730595772,139.40386088754076,140.39065034784744,140.39065034784744,x,1,1.0570064660332719,908594,001,2022-09-30_11h52.11.606,Sequential_routine,2022.2.4,59.796997747215734,
150,v,7,1,29,1,,,,,141.47817704091403,142.4650265738269,142.4650265738269,142.4650265738269,142.4650265738269,142.48170985353727,143.46861251599148,143.46861251599148,v,1,0.7623195409114487,908594,001,2022-09-30_11h52.11.606,Sequential_routine,2022.2.4,59.796997747215734,
50,c,7,2,30,2,,,,,144.25446906985235,145.2408706241331,145.2408706241331,145.2408706241331,145.2408706241331,145.25758650606258,146.2442026916151,146.2442026916151,c,1,0.5634206506547343,908594,001,2022-09-30_11h52.11.606,Sequential_routine,2022.2.4,59.796997747215734,
-150,z,7,3,31,3,,,,,146.82995316751658,147.81696359841544,147.81696359841544,147.81696359841544,147.81696359841544,147.83366800919384,148.8201718982159,148.8201718982159,z,1,0.5159811021107998,908594,001,2022-09-30_11h52.11.606,Sequential_routine,2022.2.4,59.796997747215734,
-50,x,8,0,32,0,,,,,149.3552938456064,150.34208451340282,150.34208451340282,150.34208451340282,150.34208451340282,150.35885201551127,151.34547846472515,151.34547846472515,x,1,1.1102522281976235,908594,001,2022-09-30_11h52.11.606,Sequential_routine,2022.2.4,59.796997747215734,
150,v,8,1,33,1,,,,,152.48267554332506,153.469528396834,153.469528396834,153.469528396834,153.469528396834,153.48622254395104,154.47281699469113,154.47281699469113,v,1,0.830385124500026,908594,001,2022-09-30_11h52.11.606,Sequential_routine,2022.2.4,59.796997747215734,
50,c,8,2,34,2,,,,,155.3263741684168,156.31273738490336,156.31273738490336,156.31273738490336,156.31273738490336,156.3294903971373,157.31668859266483,157.31668859266483,c,1,0.562782794287159,908594,001,2022-09-30_11h52.11.606,Sequential_routine,2022.2.4,59.796997747215734,
-150,z,8,3,35,3,,,,,157.90127112427535,158.88882884982377,158.88882884982377,158.88882884982377,158.88882884982377,158.90522263390903,159.89213042819392,159.89213042819392,z,1,0.5309754057789178,908594,001,2022-09-30_11h52.11.606,Sequential_routine,2022.2.4,59.796997747215734,
-50,x,9,0,36,0,,,,,160.4439736912168,161.4304950888377,161.4304950888377,161.4304950888377,161.4304950888377,161.4472813070347,162.43408284223733,162.43408284223733,x,1,0.4858418604508188,908594,001,2022-09-30_11h52.11.606,Sequential_routine,2022.2.4,59.796997747215734,
150,v,9,1,37,1,,,,,162.9524318538165,163.93953858200848,163.93953858200848,163.93953858200848,163.93953858200848,163.95625295457603,164.94297207861473,164.94297207861473,v,1,0.4721893795726828,908594,001,2022-09-30_11h52.11.606,Sequential_routine,2022.2.4,59.796997747215734,
50,c,9,2,38,2,,,,,165.44476972871917,166.43167963611086,166.43167963611086,166.43167963611086,166.43167963611086,166.44846434494593,167.43543341932673,167.43543341932673,c,1,0.5082353583607073,908594,001,2022-09-30_11h52.11.606,Sequential_routine,2022.2.4,59.796997747215734,
-150,z,9,3,39,3,,,,,167.97043099529128,168.9572340398554,168.9572340398554,168.9572340398554,168.9572340398554,168.97386177504586,169.96026393307102,169.96026393307102,z,1,0.5270884968372229,908594,001,2022-09-30_11h52.11.606,Sequential_routine,2022.2.4,59.796997747215734,
-50,x,10,0,40,0,,,,,170.5117651746723,171.49946296901135,171.49946296901135,171.49946296901135,171.49946296901135,171.51587335607837,172.50233015300682,172.50233015300682,x,1,0.5138073190041723,908594,001,2022-09-30_11h52.11.606,Sequential_routine,2022.2.4,59.796997747215734,
150,v,10,1,41,1,,,,,173.03759398042303,174.0245395087568,174.0245395087568,174.0245395087568,174.0245395087568,174.04127440864704,175.02798296715173,175.02798296715173,v,1,0.7400860353700409,908594,001,2022-09-30_11h52.11.606,Sequential_routine,2022.2.4,59.796997747215734,
50,c,10,2,42,2,,,,,175.7970475672405,176.78392306117894,176.78392306117894,176.78392306117894,176.78392306117894,176.80064075434257,177.78791532358582,177.78791532358582,c,1,0.5234095779751442,908594,001,2022-09-30_11h52.11.606,Sequential_routine,2022.2.4,59.796997747215734,
-150,z,10,3,43,3,,,,,178.33946516664264,179.32651936903812,179.32651936903812,179.32651936903812,179.32651936903812,179.34343086427862,180.3302043253484,180.3302043253484,z,1,0.5255543813327677,908594,001,2022-09-30_11h52.11.606,Sequential_routine,2022.2.4,59.796997747215734,
-50,x,11,0,44,0,,,,,180.88159719476016,181.86831631879886,181.86831631879886,181.86831631879886,181.86831631879886,181.8847273096103,182.87190165721904,182.87190165721904,x,1,0.4475354611781768,908594,001,2022-09-30_11h52.11.606,Sequential_routine,2022.2.4,59.796997747215734,
150,v,11,1,45,1,,,,,183.34040912161754,184.32686078671577,184.32686078671577,184.32686078671577,184.32686078671577,184.34364157120945,185.3300841801356,185.3300841801356,v,1,0.7567937667445221,908594,001,2022-09-30_11h52.11.606,Sequential_routine,2022.2.4,59.796997747215734,
50,c,11,2,46,2,,,,,186.11626192622361,187.1031449669722,187.1031449669722,187.1031449669722,187.1031449669722,187.1199595611738,188.10651899471668,188.10651899471668,c,1,0.4931984906852449,908594,001,2022-09-30_11h52.11.606,Sequential_routine,2022.2.4,59.796997747215734,
-150,z,11,3,47,3,,,,,188.62528609956098,189.61226664509286,189.61226664509286,189.61226664509286,189.61226664509286,189.6291256145364,190.61575749745361,190.61575749745361,z,1,0.5114732416554943,908594,001,2022-09-30_11h52.11.606,Sequential_routine,2022.2.4,59.796997747215734,
-50,x,12,0,48,0,,,,,191.1506307019922,192.13701233269467,192.13701233269467,192.13701233269467,192.13701233269467,192.1541731745324,193.14123945182382,193.14123945182382,x,1,0.4341308175357881,908594,001,2022-09-30_11h52.11.606,Sequential_routine,2022.2.4,59.796997747215734,
150,v,12,1,49,1,,,,,193.59232706787088,194.57970336811104,194.57970336811104,194.57970336811104,194.57970336811104,194.5960974540685,195.58288208441672,195.58288208441672,v,1,0.48843977427077334,908594,001,2022-09-30_11h52.11.606,Sequential_routine,2022.2.4,59.796997747215734,
50,c,12,2,50,2,,,,,196.10131803524519,197.08840574547685,197.08840574547685,197.08840574547685,197.08840574547685,197.10509928884903,198.0912783631752,198.0912783631752,c,1,0.5405837021980915,908594,001,2022-09-30_11h52.11.606,Sequential_routine,2022.2.4,59.796997747215734,
-150,z,12,3,51,3,,,,,198.66001651845727,199.64695389623648,199.64695389623648,199.64695389623648,199.64695389623648,199.66358163142695,200.65047282273008,200.65047282273008,z,1,0.5729528752308397,908594,001,2022-09-30_11h52.11.606,Sequential_routine,2022.2.4,59.796997747215734,
-50,x,13,0,52,0,,,,,201.2521211063745,202.23913425412456,202.23913425412456,202.23913425412456,202.23913425412456,202.25576198931458,203.24299580578463,203.24299580578463,x,1,0.44456956491012534,908594,001,2022-09-30_11h52.11.606,Sequential_routine,2022.2.4,59.796997747215734,
150,v,13,1,53,1,,,,,203.7109408819142,204.69758695283372,204.69758695283372,204.69758695283372,204.69758695283372,204.7143109853173,205.701574989027,205.701574989027,v,1,0.8179606605199297,908594,001,2022-09-30_11h52.11.606,Sequential_routine,2022.2.4,59.796997747215734,
50,c,13,2,54,2,,,,,206.53739866898422,207.52435868719294,207.52435868719294,207.52435868719294,207.52435868719294,207.5412505607278,208.52807322699755,208.52807322699755,c,1,0.9189333537465245,908594,001,2022-09-30_11h52.11.606,Sequential_routine,2022.2.4,59.796997747215734,
-150,z,13,3,55,3,,,,,209.46432773923516,210.45104867450846,210.45104867450846,210.45104867450846,210.45104867450846,210.4677343691983,211.4546125799884,211.4546125799884,z,1,0.5685657637332042,908594,001,2022-09-30_11h52.11.606,Sequential_routine,2022.2.4,59.796997747215734,
-50,x,14,0,56,0,,,,,212.03993168023953,213.02652794221422,213.02652794221422,213.02652794221422,213.02652794221422,213.04320820320117,214.0300136627443,214.0300136627443,x,1,0.5210531620700749,908594,001,2022-09-30_11h52.11.606,Sequential_routine,2022.2.4,59.796997747215734,
150,v,14,1,57,1,,,,,214.58188318866587,215.56884290500238,215.56884290500238,215.56884290500238,215.56884290500238,215.5856067846421,216.57232409744665,216.57232409744665,v,1,0.9548057559086374,908594,001,2022-09-30_11h52.11.606,Sequential_routine,2022.2.4,59.796997747215734,
50,c,14,2,58,2,,,,,217.55902178854558,218.54623205896905,218.54623205896905,218.54623205896905,218.54623205896905,218.56299201426737,219.54977936146724,219.54977936146724,c,1,0.6499556929079517,908594,001,2022-09-30_11h52.11.606,Sequential_routine,2022.2.4,59.796997747215734,
-150,z,14,3,59,3,,,,,220.2185215014647,221.20513134769726,221.20513134769726,221.20513134769726,221.20513134769726,221.22175696978047,222.2085974465217,222.2085974465217,z,1,0.5827960283727407,908594,001,2022-09-30_11h52.11.606,Sequential_routine,2022.2.4,59.796997747215734,
-50,x,15,0,60,0,,,,,222.81057175235082,223.79742309649828,223.79742309649828,223.79742309649828,223.79742309649828,223.81464370906997,224.80095198478057,224.80095198478057,x,1,0.5180087789790377,908594,001,2022-09-30_11h52.11.606,Sequential_routine,2022.2.4,59.796997747215734,
150,v,15,1,61,1,,,,,225.33626743237573,226.32272543679392,226.32272543679392,226.32272543679392,226.32272543679392,226.33990016476173,227.3266992849849,227.3266992849849,v,1,0.7603036370664995,908594,001,2022-09-30_11h52.11.606,Sequential_routine,2022.2.4,59.796997747215734,
50,c,15,2,62,2,,,,,228.11289363405467,229.0993063576134,229.0993063576134,229.0993063576134,229.0993063576134,229.1158969624994,230.10305591461565,230.10305591461565,c,1,0.88039692771099,908594,001,2022-09-30_11h52.11.606,Sequential_routine,2022.2.4,59.796997747215734,
-150,z,15,3,63,3,,,,,231.00644859807426,231.99263069112476,231.99263069112476,231.99263069112476,231.99263069112476,232.00941600370425,232.99620757711773,232.99620757711773,z,1,0.4668912171910051,908594,001,2022-09-30_11h52.11.606,Sequential_routine,2022.2.4,59.796997747215734,
-50,x,16,0,64,0,,,,,233.48154744618978,234.46856693326026,234.46856693326026,234.46856693326026,234.46856693326026,234.4851143703936,235.4712940484651,235.4712940484651,x,1,0.5042397753577461,908594,001,2022-09-30_11h52.11.606,Sequential_routine,2022.2.4,59.796997747215734,
150,v,16,1,65,1,,,,,236.00646127671462,236.99350249859754,236.99350249859754,236.99350249859754,236.99350249859754,237.0102150599305,237.99728314845652,237.99728314845652,v,1,0.777814047135962,908594,001,2022-09-30_11h52.11.606,Sequential_routine,2022.2.4,59.796997747215734,
50,c,16,2,66,2,,,,,238.79931221393826,239.78681680994532,239.78681680994532,239.78681680994532,239.78681680994532,239.80280578315023,240.79026479642607,240.79026479642607,c,1,0.640530633031176,908594,001,2022-09-30_11h52.11.606,Sequential_routine,2022.2.4,59.796997747215734,
-150,z,16,3,67,3,,,,,241.45891788406743,242.4455802560965,242.4455802560965,242.4455802560965,242.4455802560965,242.4623688892725,243.44919215928712,243.44919215928712,z,1,0.5098718086069312,908594,001,2022-09-30_11h52.11.606,Sequential_routine,2022.2.4,59.796997747215734,
-50,x,17,0,68,0,,,,,243.98438383920075,244.97108877523715,244.97108877523715,244.97108877523715,244.97108877523715,244.9877463957946,245.97504269984984,245.97504269984984,x,1,0.5284795248276168,908594,001,2022-09-30_11h52.11.606,Sequential_routine,2022.2.4,59.796997747215734,
150,v,17,1,69,1,,,,,246.52689441530038,247.5132114453104,247.5132114453104,247.5132114453104,247.5132114453104,247.5299064980445,248.51688583608666,248.51688583608666,v,1,0.6580507030175795,908594,001,2022-09-30_11h52.11.606,Sequential_routine,2022.2.4,59.796997747215734,
50,c,17,2,70,2,,,,,249.20289869947328,250.1889102346213,250.1889102346213,250.1889102346213,250.1889102346213,250.20583984220502,251.1927041668655,251.1927041668655,c,1,0.4790941068340544,908594,001,2022-09-30_11h52.11.606,Sequential_routine,2022.2.4,59.796997747215734,
-150,z,17,3,71,3,,,,,251.69438287924686,252.6815699054955,252.6815699054955,252.6815699054955,252.6815699054955,252.69835853867198,253.68481744870724,253.68481744870724,z,1,0.49940528897241165,908594,001,2022-09-30_11h52.11.606,Sequential_routine,2022.2.4,59.796997747215734,
-50,x,18,0,72,0,,,,,254.20324856957768,255.19009387627693,255.19009387627693,255.19009387627693,255.19009387627693,255.2067194983606,256.1934108501391,256.1934108501391,x,1,0.5666829856136246,908594,001,2022-09-30_11h52.11.606,Sequential_routine,2022.2.4,59.796997747215734,
150,v,18,1,73,1,,,,,256.77877311814245,257.7655052226942,257.7655052226942,257.7655052226942,257.7655052226942,257.78227634727136,258.76905524204403,258.76905524204403,v,1,0.7421496350534653,908594,001,2022-09-30_11h52.11.606,Sequential_routine,2022.2.4,59.796997747215734,
50,c,18,2,74,2,,,,,259.5383447370659,260.52559726962454,260.52559726962454,260.52559726962454,260.52559726962454,260.5422660594604,261.52872164889914,261.52872164889914,c,1,0.8945369325047068,908594,001,2022-09-30_11h52.11.606,Sequential_routine,2022.2.4,59.796997747215734,
-150,z,18,3,75,3,,,,,262.4487592742744,263.4353712336133,263.4353712336133,263.4353712336133,263.4353712336133,263.4519893088873,264.4388146920087,264.4388146920087,z,1,0.43233377117621785,908594,001,2022-09-30_11h52.11.606,Sequential_routine,2022.2.4,59.796997747215734,
-50,x,19,0,76,0,,,,,264.8906950249616,265.8775249361688,265.8775249361688,265.8775249361688,265.8775249361688,265.8942550061006,266.88112053825034,266.88112053825034,x,1,0.5499873291346375,908594,001,2022-09-30_11h52.11.606,Sequential_routine,2022.2.4,59.796997747215734,
150,v,19,1,77,1,,,,,267.4492884565807,268.4356821621791,268.4356821621791,268.4356821621791,268.4356821621791,268.4529281320315,269.439338138739,269.439338138739,v,1,0.6644642838941763,908594,001,2022-09-30_11h52.11.606,Sequential_routine,2022.2.4,59.796997747215734,
50,c,19,2,78,2,,,,,270.1256607232017,271.1124574284454,271.1124574284454,271.1124574284454,271.1124574284454,271.12914010441136,272.1154027973912,272.1154027973912,c,1,0.7558425668321433,908594,001,2022-09-30_11h52.11.606,Sequential_routine,2022.2.4,59.796997747215734,
-150,z,19,3,79,3,,,,,272.90150718848736,273.88836034386895,273.88836034386895,273.88836034386895,273.88836034386895,273.9051441470865,274.89167339338974,274.89167339338974,z,1,0.5557244139772592,908594,001,2022-09-30_11h52.11.606,Sequential_routine,2022.2.4,59.796997747215734,
-50,x,20,0,80,0,,,,,275.4769991348335,276.46388609992346,276.46388609992346,276.46388609992346,276.46388609992346,276.48051443885834,277.4674952862624,277.4674952862624,x,1,0.44339739440556514,908594,001,2022-09-30_11h52.11.606,Sequential_routine,2022.2.4,59.796997747215734,
150,v,20,1,81,1,,,,,277.9360806337386,278.92295492018775,278.92295492018775,278.92295492018775,278.92295492018775,278.93965299164574,279.9263446452969,279.9263446452969,v,1,0.560223822005355,908594,001,2022-09-30_11h52.11.606,Sequential_routine,2022.2.4,59.796997747215734,
50,c,20,2,82,2,,,,,280.5116857822327,281.4986107832442,281.4986107832442,281.4986107832442,281.4986107832442,281.5153852284175,282.5018465534322,282.5018465534322,c,1,0.8010787487742164,908594,001,2022-09-30_11h52.11.606,Sequential_routine,2022.2.4,59.796997747215734,
-150,z,20,3,83,3,,,,,283.321362784809,284.30786727757595,284.30786727757595,284.30786727757595,284.30786727757595,284.3246716081162,285.31153261218014,285.31153261218014,z,1,0.7441700669842248,908594,001,2022-09-30_11h52.11.606,Sequential_routine,2022.2.4,59.796997747215734,
-50,x,21,0,84,0,,,,,286.0806799253046,287.06782076507716,287.06782076507716,287.06782076507716,287.06782076507716,287.0846266049798,288.0708980522586,288.0708980522586,x,1,0.7044029071989826,908594,001,2022-09-30_11h52.11.606,Sequential_routine,2022.2.4,59.796997747215734,
150,v,21,1,85,1,,,,,288.807127690211,289.7940083159806,289.7940083159806,289.7940083159806,289.7940083159806,289.81100342987384,290.79706205711545,290.79706205711545,v,1,0.6016678829373632,908594,001,2022-09-30_11h52.11.606,Sequential_routine,2022.2.4,59.796997747215734,
50,c,21,2,86,2,,,,,291.4161790924386,292.40281037161094,292.40281037161094,292.40281037161094,292.40281037161094,292.41955402580015,293.4060458399267,293.4060458399267,c,1,0.857474549366998,908594,001,2022-09-30_11h52.11.606,Sequential_routine,2022.2.4,59.796997747215734,
-150,z,21,3,87,3,,,,,294.29299342099284,295.27922079490236,295.27922079490236,295.27922079490236,295.27922079490236,295.29592128133936,296.2829640125842,296.2829640125842,z,1,0.4916006801054209,908594,001,2022-09-30_11h52.11.606,Sequential_routine,2022.2.4,59.796997747215734,
-50,x,22,0,88,0,,,,,296.801255064664,297.7879744905749,297.7879744905749,297.7879744905749,297.7879744905749,297.80470365488964,298.79198878966645,298.79198878966645,x,1,0.46347160671484744,908594,001,2022-09-30_11h52.11.606,Sequential_routine,2022.2.4,59.796997747215734,
150,v,22,1,89,1,,,,,299.27703191817545,300.263585918015,300.263585918015,300.263585918015,300.263585918015,300.28020308767145,301.2666755819646,301.2666755819646,v,1,0.788222305398449,908594,001,2022-09-30_11h52.11.606,Sequential_routine,2022.2.4,59.796997747215734,
50,c,22,2,90,2,,,,,302.08628690314526,303.0730277619964,303.0730277619964,303.0730277619964,303.0730277619964,303.08967481701984,304.0765011057583,304.0765011057583,c,1,0.6342468572843245,908594,001,2022-09-30_11h52.11.606,Sequential_routine,2022.2.4,59.796997747215734,
-150,z,22,3,91,3,,,,,304.7292805354491,305.71577778327855,305.71577778327855,305.71577778327855,305.71577778327855,305.7324408375389,306.7189033700429,306.7189033700429,z,1,0.5519579521210289,908594,001,2022-09-30_11h52.11.606,Sequential_routine,2022.2.4,59.796997747215734,
-50,x,23,0,92,0,,,,,307.2876107343409,308.2744391361862,308.2744391361862,308.2744391361862,308.2744391361862,308.2911981858674,309.278454642767,309.278454642767,x,1,0.48821427559278163,908594,001,2022-09-30_11h52.11.606,Sequential_routine,2022.2.4,59.796997747215734,
150,v,23,1,93,1,,,,,309.79659173992604,310.7833479942692,310.7833479942692,310.7833479942692,310.7833479942692,310.80016983340875,311.78654361542885,311.78654361542885,v,1,0.923932662459265,908594,001,2022-09-30_11h52.11.606,Sequential_routine,2022.2.4,59.796997747215734,
50,c,23,2,94,2,,,,,312.7399882511263,313.72750884637026,313.72750884637026,313.72750884637026,313.72750884637026,313.7443986067983,314.73044576288885,314.73044576288885,c,1,0.5090799973186222,908594,001,2022-09-30_11h52.11.606,Sequential_routine,2022.2.4,59.796997747215734,
-150,z,23,3,95,3,,,,,315.26545148940795,316.252328794581,316.252328794581,316.252328794581,316.252328794581,316.2690326016145,317.2557746679554,317.2557746679554,z,1,0.5114448656509012,908594,001,2022-09-30_11h52.11.606,Sequential_routine,2022.2.4,59.796997747215734,
150,v,,,,,0,0,0,1,317.80307958141157,318.7776214749606,318.7776214749606,318.7776214749606,318.7776214749606,318.8110375414544,319.781488460324,319.781488460324,v,1,0.8169717265577674,908594,001,2022-09-30_11h52.11.606,Sequential_routine,2022.2.4,59.796997747215734,
-50,x,,,,,0,1,1,0,320.61794607230786,321.60417314434517,321.60417314434517,321.60417314434517,321.60417314434517,321.62082382183735,322.6077367479529,322.6077367479529,x,1,0.5194330129329501,908594,001,2022-09-30_11h52.11.606,Sequential_routine,2022.2.4,59.796997747215734,
50,c,,,,,0,2,2,2,323.1595839353172,324.14654334978104,324.14654334978104,324.14654334978104,324.14654334978104,324.1632160639583,325.150128386329,325.150128386329,c,1,0.744513295896013,908594,001,2022-09-30_11h52.11.606,Sequential_routine,2022.2.4,59.796997747215734,
-50,x,,,,,0,3,3,0,325.9192932080523,326.906446424593,326.906446424593,326.906446424593,326.906446424593,326.9231668346083,327.90939662349683,327.90939662349683,x,1,0.8654150008110264,908594,001,2022-09-30_11h52.11.606,Sequential_routine,2022.2.4,59.796997747215734,
-150,z,,,,,1,0,4,3,328.79594452551373,329.7823367217502,329.7823367217502,329.7823367217502,329.7823367217502,329.7993215719821,330.78661878165485,330.78661878165485,z,1,0.5494536187425183,908594,001,2022-09-30_11h52.11.606,Sequential_routine,2022.2.4,59.796997747215734,
50,c,,,,,1,1,5,2,331.354821113438,332.3414780517637,332.3414780517637,332.3414780517637,332.3414780517637,332.358215366633,333.3452155338705,333.3452155338705,c,1,0.8698458838061924,908594,001,2022-09-30_11h52.11.606,Sequential_routine,2022.2.4,59.796997747215734,
-150,z,,,,,1,2,6,3,334.2318014718089,335.2183524529246,335.2183524529246,335.2183524529246,335.2183524529246,335.23507225919457,336.2215175849724,336.2215175849724,z,1,0.48921920879183745,908594,001,2022-09-30_11h52.11.606,Sequential_routine,2022.2.4,59.796997747215734,
150,v,,,,,1,3,7,1,336.740137376089,337.72663764264234,337.72663764264234,337.72663764264234,337.72663764264234,337.7435910981453,338.7306220563669,338.7306220563669,v,1,0.6680176238405693,908594,001,2022-09-30_11h52.11.606,Sequential_routine,2022.2.4,59.796997747215734,
-150,z,,,,,2,0,8,3,339.4165878276599,340.4034941125824,340.4034941125824,340.4034941125824,340.4034941125824,340.4201284889655,341.40653185448036,341.40653185448036,z,1,0.4723765404569349,908594,001,2022-09-30_11h52.11.606,Sequential_routine,2022.2.4,59.796997747215734,
150,v,,,,,2,1,9,1,341.9082410559736,342.8948684108045,342.8948684108045,342.8948684108045,342.8948684108045,342.91155591672896,343.8984649185036,343.8984649185036,v,1,0.4445786210822007,908594,001,2022-09-30_11h52.11.606,Sequential_routine,2022.2.4,59.796997747215734,
50,c,,,,,2,2,10,2,344.36694974247257,345.3539858325248,345.3539858325248,345.3539858325248,345.3539858325248,345.3706337931653,346.3568798831634,346.3568798831634,c,1,0.7872385032674174,908594,001,2022-09-30_11h52.11.606,Sequential_routine,2022.2.4,59.796997747215734,
-150,z,,,,,2,3,11,3,347.17641301939375,348.1631734999505,348.1631734999505,348.1631734999505,348.1631734999505,348.1798803257079,349.1666335613272,349.1666335613272,z,1,0.6318454623919934,908594,001,2022-09-30_11h52.11.606,Sequential_routine,2022.2.4,59.796997747215734,
-50,x,,,,,3,0,12,0,349.81889195926624,350.80630569168306,350.80630569168306,350.80630569168306,350.80630569168306,350.82292648380826,351.80959338392313,351.80959338392313,x,1,0.6936378357672766,908594,001,2022-09-30_11h52.11.606,Sequential_routine,2022.2.4,59.796997747215734,
-50,x,,,,,3,1,13,0,352.5284439262973,353.5150924121958,353.5150924121958,353.5150924121958,353.5150924121958,353.53185055626,354.5190493555324,354.5190493555324,x,1,0.5112703834070089,908594,001,2022-09-30_11h52.11.606,Sequential_routine,2022.2.4,59.796997747215734,
50,c,,,,,3,2,14,2,355.05389116534207,356.0406075725291,356.0406075725291,356.0406075725291,356.0406075725291,356.05724466576385,357.0439677141435,357.0439677141435,c,1,0.7709289415802232,908594,001,2022-09-30_11h52.11.606,Sequential_routine,2022.2.4,59.796997747215734,
50,c,,,,,3,3,15,2,357.84681938189806,358.83356537257987,358.83356537257987,358.83356537257987,358.83356537257987,358.85029302753264,359.83737439844344,359.83737439844344,c,1,0.5849915462918034,908594,001,2022-09-30_11h52.11.606,Sequential_routine,2022.2.4,59.796997747215734,
-150,z,,,,,4,0,16,3,360.43915248721714,361.4259700216562,361.4259700216562,361.4259700216562,361.4259700216562,361.4427366181476,362.42994085112286,362.42994085112286,z,1,0.7294338642132061,908594,001,2022-09-30_11h52.11.606,Sequential_routine,2022.2.4,59.796997747215734,
150,v,,,,,4,1,17,1,363.1820420339195,364.1692698129418,364.1692698129418,364.1692698129418,364.1692698129418,364.1858413998666,365.17246090601566,365.17246090601566,v,1,1.138067656171188,908594,001,2022-09-30_11h52.11.606,Sequential_routine,2022.2.4,59.796997747215734,
-50,x,,,,,4,2,18,0,366.3430408451459,367.33020824968935,367.33020824968935,367.33020824968935,367.33020824968935,367.34691930166036,368.3332918761912,368.3332918761912,x,1,0.8572529750294962,908594,001,2022-09-30_11h52.11.606,Sequential_routine,2022.2.4,59.796997747215734,
50,c,,,,,4,3,19,2,369.219989205043,370.20671647963627,370.20671647963627,370.20671647963627,370.20671647963627,370.22348035927644,371.21001051119674,371.21001051119674,c,1,0.4126263338253011,908594,001,2022-09-30_11h52.11.606,Sequential_routine,2022.2.4,59.796997747215734,
50,c,,,,,5,0,20,2,371.6446910607733,372.631955064483,372.631955064483,372.631955064483,372.631955064483,372.6485888371212,373.6352294743374,373.6352294743374,c,1,0.6756646553180872,908594,001,2022-09-30_11h52.11.606,Sequential_routine,2022.2.4,59.796997747215734,
-50,x,,,,,5,1,21,0,374.337481261271,375.3243504158895,375.3243504158895,375.3243504158895,375.3243504158895,375.3411399546826,376.3279106989007,376.3279106989007,x,1,0.5268639037767571,908594,001,2022-09-30_11h52.11.606,Sequential_routine,2022.2.4,59.796997747215734,
50,c,,,,,5,2,22,2,376.87981826074383,377.86651836682177,377.86651836682177,377.86651836682177,377.86651836682177,377.8832221738553,378.8703458069017,378.8703458069017,c,1,0.688059535803859,908594,001,2022-09-30_11h52.11.606,Sequential_routine,2022.2.4,59.796997747215734,
150,v,,,,,5,3,23,1,379.5889817180041,380.576132821438,380.576132821438,380.576132821438,380.576132821438,380.59270772895934,381.5799475828776,381.5799475828776,v,1,0.65099685079349,908594,001,2022-09-30_11h52.11.606,Sequential_routine,2022.2.4,59.796997747215734,
-150,z,,,,,6,0,24,3,382.24835917260407,383.2352011587068,383.2352011587068,383.2352011587068,383.2352011587068,383.2518950039512,384.23859541190177,384.23859541190177,z,1,0.6802449651477218,908594,001,2022-09-30_11h52.11.606,Sequential_routine,2022.2.4,59.796997747215734,
-150,z,,,,,6,1,25,3,384.94106907504465,385.92784283798665,385.92784283798665,385.92784283798665,385.92784283798665,385.9445297401662,386.9313611607354,386.9313611607354,z,1,0.5318620049993115,908594,001,2022-09-30_11h52.11.606,Sequential_routine,2022.2.4,59.796997747215734,
-50,x,,,,,6,2,26,0,387.48319717882123,388.4698740407248,388.4698740407248,388.4698740407248,388.4698740407248,388.4870520892887,389.4734521342075,389.4734521342075,x,1,0.6767667914273261,908594,001,2022-09-30_11h52.11.606,Sequential_routine,2022.2.4,59.796997747215734,
150,v,,,,,6,3,27,1,390.17601635906885,391.1629190215226,391.1629190215226,391.1629190215226,391.1629190215226,391.17967927869404,392.1665602063358,392.1665602063358,v,1,0.6715881705135871,908594,001,2022-09-30_11h52.11.606,Sequential_routine,2022.2.4,59.796997747215734,
-50,x,,,,,7,0,28,0,392.86899915415324,393.8559676247892,393.8559676247892,393.8559676247892,393.8559676247892,393.87267445054704,394.85890303194583,394.85890303194583,x,1,0.619574349587765,908594,001,2022-09-30_11h52.11.606,Sequential_routine,2022.2.4,59.796997747215734,
-150,z,,,,,7,1,29,3,395.5112145594262,396.4979741343659,396.4979741343659,396.4979741343659,396.4979741343659,396.51467643203705,397.5016545625899,397.5016545625899,z,1,0.504728204890398,908594,001,2022-09-30_11h52.11.606,Sequential_routine,2022.2.4,59.796997747215734,
-150,z,,,,,7,2,30,3,398.03687975033927,399.0238189393531,399.0238189393531,399.0238189393531,399.0238189393531,399.0404065255152,400.02697048714344,400.02697048714344,z,1,0.5078845826392353,908594,001,2022-09-30_11h52.11.606,Sequential_routine,2022.2.4,59.796997747215734,
-50,x,,,,,7,3,31,0,400.56215341275765,401.5488185016379,401.5488185016379,401.5488185016379,401.5488185016379,401.56551536560664,402.552415009337,402.552415009337,x,1,0.44581418478946944,908594,001,2022-09-30_11h52.11.606,Sequential_routine,2022.2.4,59.796997747215734,
150,v,,,,,8,0,32,1,403.0205738111208,404.00800142966773,404.00800142966773,404.00800142966773,404.00800142966773,404.02458086527486,405.011083244935,405.011083244935,v,1,0.6438071559928176,908594,001,2022-09-30_11h52.11.606,Sequential_routine,2022.2.4,59.796997747215734,
50,c,,,,,8,1,33,2,405.680147180904,406.66643523116454,406.66643523116454,406.66643523116454,406.66643523116454,406.68325344783534,407.6700528699307,407.6700528699307,c,1,0.8804440198041448,908594,001,2022-09-30_11h52.11.606,Sequential_routine,2022.2.4,59.796997747215734,
-150,z,,,,,8,2,34,3,408.5733797452076,409.5600647576657,409.5600647576657,409.5600647576657,409.5600647576657,409.5766574756585,410.56361236203657,410.56361236203657,z,1,0.41963822578645704,908594,001,2022-09-30_11h52.11.606,Sequential_routine,2022.2.4,59.796997747215734,
150,v,,,,,8,3,35,1,411.0150338489516,412.0018601376901,412.0018601376901,412.0018601376901,412.0018601376901,412.0187511056074,413.0055761868566,413.0055761868566,v,1,0.6004389604227072,908594,001,2022-09-30_11h52.11.606,Sequential_routine,2022.2.4,59.796997747215734,
150,v,,,,,9,0,36,1,413.6244743646944,414.61067577757785,414.61067577757785,414.61067577757785,414.61067577757785,414.6275480294071,415.61510635870036,415.61510635870036,v,1,0.8711982721297318,908594,001,2022-09-30_11h52.11.606,Sequential_routine,2022.2.4,59.796997747215734,
-150,z,,,,,9,1,37,3,416.5175348617331,417.50432583140173,417.50432583140173,417.50432583140173,417.50432583140173,417.52100911111256,418.5077321594922,418.5077321594922,z,1,0.6028965035802685,908594,001,2022-09-30_11h52.11.606,Sequential_routine,2022.2.4,59.796997747215734,
-150,z,,,,,9,2,38,3,419.14356417112776,420.1300846631316,420.1300846631316,420.1300846631316,420.1300846631316,420.147388894356,421.13347499198517,421.13347499198517,z,1,0.5211633454937328,908594,001,2022-09-30_11h52.11.606,Sequential_routine,2022.2.4,59.796997747215734,
50,c,,,,,9,3,39,2,421.6854848885696,422.6727833057321,422.6727833057321,422.6727833057321,422.6727833057321,422.6895157906429,423.67609695899773,423.67609695899773,c,1,1.0977836908477911,908594,001,2022-09-30_11h52.11.606,Sequential_routine,2022.2.4,59.796997747215734,
50,c,,,,,10,0,40,2,424.7964616329241,425.78331720328515,425.78331720328515,425.78331720328515,425.78331720328515,425.80013330684915,426.78655297347314,426.78655297347314,c,1,0.4997835350814057,908594,001,2022-09-30_11h52.11.606,Sequential_routine,2022.2.4,59.796997747215734,
150,v,,,,,10,1,41,1,427.3051507279047,428.29228130401634,428.29228130401634,428.29228130401634,428.29228130401634,428.30922449585796,429.2954606240669,429.2954606240669,v,1,0.6631505352365821,908594,001,2022-09-30_11h52.11.606,Sequential_routine,2022.2.4,59.796997747215734,
-50,x,,,,,10,2,42,0,429.98100045341243,430.9681548774429,430.9681548774429,430.9681548774429,430.9681548774429,430.9849081915486,431.9713106514464,431.9713106514464,x,1,0.787838625585664,908594,001,2022-09-30_11h52.11.606,Sequential_routine,2022.2.4,59.796997747215734,
-50,x,,,,,10,3,43,0,432.7906065159759,433.7779493083799,433.7779493083799,433.7779493083799,433.7779493083799,433.79438656209004,434.78096410797616,434.78096410797616,x,1,0.5052715751990036,908594,001,2022-09-30_11h52.11.606,Sequential_routine,2022.2.4,59.796997747215734,
50,c,,,,,11,0,44,2,435.3162055968346,436.30304577170364,436.30304577170364,436.30304577170364,436.30304577170364,436.31974746563037,437.3068644574837,437.3068644574837,c,1,0.843309489164767,908594,001,2022-09-30_11h52.11.606,Sequential_routine,2022.2.4,59.796997747215734,
50,c,,,,,11,1,45,2,438.17612624061985,439.1629688304679,439.1629688304679,439.1629688304679,439.1629688304679,439.1796484877095,440.16640051583954,440.16640051583954,c,1,0.7522016838915988,908594,001,2022-09-30_11h52.11.606,Sequential_routine,2022.2.4,59.796997747215734,
-150,z,,,,,11,2,46,3,440.936400618476,441.9392303702948,441.9392303702948,441.9392303702948,441.9392303702948,441.9392303702948,442.92610556236104,442.92610556236104,z,1,0.5681271431453752,908594,001,2022-09-30_11h52.11.606,Sequential_routine,2022.2.4,59.796997747215734,
50,c,,,,,11,3,47,2,443.5119719572622,444.4982180472598,444.4982180472598,444.4982180472598,444.4982180472598,444.5148744603275,445.5017695759716,445.5017695759716,c,1,0.5527029731883886,908594,001,2022-09-30_11h52.11.606,Sequential_routine,2022.2.4,59.796997747215734,
150,v,,,,,12,0,48,1,446.0869709459894,447.07436324546643,447.07436324546643,447.07436324546643,447.07436324546643,447.09123368606106,448.07720295907393,448.07720295907393,v,1,0.8252203897163781,908594,001,2022-09-30_11h52.11.606,Sequential_routine,2022.2.4,59.796997747215734,
50,c,,,,,12,1,49,2,448.9302786463318,449.917035806292,449.917035806292,449.917035806292,449.917035806292,449.93371606727897,450.92027731205553,450.92027731205553,c,1,0.7977330970343246,908594,001,2022-09-30_11h52.11.606,Sequential_routine,2022.2.4,59.796997747215734,
150,v,,,,,12,2,50,1,451.7403432530614,452.72677016462285,452.72677016462285,452.72677016462285,452.72677016462285,452.7434634061228,453.7308683842398,453.7308683842398,v,1,0.8031595551842656,908594,001,2022-09-30_11h52.11.606,Sequential_routine,2022.2.4,59.796997747215734,
-50,x,,,,,12,3,51,0,454.5665230156569,455.553248479016,455.553248479016,455.553248479016,455.553248479016,455.56999545380177,456.5567821972568,456.5567821972568,x,1,0.5051870509291803,908594,001,2022-09-30_11h52.11.606,Sequential_routine,2022.2.4,59.796997747215734,
150,v,,,,,13,0,52,1,457.0920695707191,458.0788677853252,458.0788677853252,458.0788677853252,458.0788677853252,458.09557642231675,459.08231788491275,459.08231788491275,v,1,0.6521590595093585,908594,001,2022-09-30_11h52.11.606,Sequential_routine,2022.2.4,59.796997747215734,
-50,x,,,,,13,1,53,0,459.7512776749063,460.7379738566433,460.7379738566433,460.7379738566433,460.7379738566433,460.7546993984888,461.7415232722483,461.7415232722483,x,1,0.6334139913496983,908594,001,2022-09-30_11h52.11.606,Sequential_routine,2022.2.4,59.796997747215734,
-50,x,,,,,13,2,54,0,462.3937074095784,463.38082923139063,463.38082923139063,463.38082923139063,463.38082923139063,463.3972414296918,464.3847333470585,464.3847333470585,x,1,0.6617960338062403,908594,001,2022-09-30_11h52.11.606,Sequential_routine,2022.2.4,59.796997747215734,
50,c,,,,,13,3,55,2,465.06972497613697,466.0568449867146,466.0568449867146,466.0568449867146,466.0568449867146,466.0735195121256,467.05987276682345,467.05987276682345,c,1,0.5626952512930075,908594,001,2022-09-30_11h52.11.606,Sequential_routine,2022.2.4,59.796997747215734,
50,c,,,,,14,0,56,2,467.64531080479765,468.6326472578817,468.6326472578817,468.6326472578817,468.6326472578817,468.64949354868486,469.6356834904177,469.6356834904177,c,1,0.5306777595988024,908594,001,2022-09-30_11h52.11.606,Sequential_routine,2022.2.4,59.796997747215734,
50,c,,,,,14,1,57,2,470.18753399837806,471.1748070582594,471.1748070582594,471.1748070582594,471.1748070582594,471.19123978388325,472.1777415597985,472.1777415597985,c,1,0.4845990518056169,908594,001,2022-09-30_11h52.11.606,Sequential_routine,2022.2.4,59.796997747215734,
150,v,,,,,14,2,58,1,472.6795512847989,473.6668080435711,473.6668080435711,473.6668080435711,473.6668080435711,473.6836202227937,474.66981016452655,474.66981016452655,v,1,0.8086515196428081,908594,001,2022-09-30_11h52.11.606,Sequential_routine,2022.2.4,59.796997747215734,
-150,z,,,,,14,3,59,3,475.5061310283163,476.4929727125468,476.4929727125468,476.4929727125468,476.4929727125468,476.50971546111896,477.49625497108354,477.49625497108354,z,1,1.0225081870075883,908594,001,2022-09-30_11h52.11.606,Sequential_routine,2022.2.4,59.796997747215734,
150,v,,,,,15,0,60,1,478.55051140202204,479.53665787413,479.53665787413,479.53665787413,479.53665787413,479.5533556437158,480.54075156566114,480.54075156566114,v,1,1.0822167352489487,908594,001,2022-09-30_11h52.11.606,Sequential_routine,2022.2.4,59.796997747215734,
150,v,,,,,15,1,61,1,481.6446095552269,482.63075331048367,482.63075331048367,482.63075331048367,482.63075331048367,482.647496360928,483.6349429974357,483.6349429974357,v,1,0.995768632245472,908594,001,2022-09-30_11h52.11.606,Sequential_routine,2022.2.4,59.796997747215734,
-50,x,,,,,15,2,62,0,484.6544922536523,485.641390086148,485.641390086148,485.641390086148,485.641390086148,485.65805736662196,486.6451073428043,486.6451073428043,x,1,0.8814278219351763,908594,001,2022-09-30_11h52.11.606,Sequential_routine,2022.2.4,59.796997747215734,
150,v,,,,,15,3,63,1,487.5480997434688,488.5346425740295,488.5346425740295,488.5346425740295,488.5346425740295,488.5513367211465,489.5381841409526,489.5381841409526,v,1,0.8357092479081984,908594,001,2022-09-30_11h52.11.606,Sequential_routine,2022.2.4,59.796997747215734,
-150,z,,,,,16,0,64,3,490.39142525428224,491.37831946430924,491.37831946430924,491.37831946430924,491.37831946430924,491.3947887164927,492.3818420132716,492.3818420132716,z,1,0.8406457671626413,908594,001,2022-09-30_11h52.11.606,Sequential_routine,2022.2.4,59.796997747215734,
-50,x,,,,,16,1,65,0,493.25124295958085,494.2377142463847,494.2377142463847,494.2377142463847,494.2377142463847,494.2545647634015,495.2412624545,495.2412624545,x,1,0.573478133196204,908594,001,2022-09-30_11h52.11.606,Sequential_routine,2022.2.4,59.796997747215734,
150,v,,,,,16,2,66,1,495.84334603813613,496.8302000991348,496.8302000991348,496.8302000991348,496.8302000991348,496.8468142500674,497.8337600802738,497.8337600802738,v,1,0.8120937705484721,908594,001,2022-09-30_11h52.11.606,Sequential_routine,2022.2.4,59.796997747215734,
-150,z,,,,,16,3,67,3,498.66991461237467,499.6569081384191,499.6569081384191,499.6569081384191,499.6569081384191,499.67365692443946,500.6604228386991,500.6604228386991,z,1,0.56206373424493,908594,001,2022-09-30_11h52.11.606,Sequential_routine,2022.2.4,59.796997747215734,
50,c,,,,,17,0,68,2,501.24554572189436,502.2323937454453,502.2323937454453,502.2323937454453,502.2323937454453,502.249125324739,503.2359736501626,503.2359736501626,v,0,0.8672241220660908,908594,001,2022-09-30_11h52.11.606,Sequential_routine,2022.2.4,59.796997747215734,
-150,z,,,,,17,1,69,3,504.1222866954572,505.1093901030531,505.1093901030531,505.1093901030531,505.1093901030531,505.12632574808504,506.11243508988855,506.11243508988855,z,1,0.4865461287454309,908594,001,2022-09-30_11h52.11.606,Sequential_routine,2022.2.4,59.796997747215734,
50,c,,,,,17,2,70,2,506.6308752669306,507.61787271731646,507.61787271731646,507.61787271731646,507.61787271731646,507.63469334896627,508.6211821443685,508.6211821443685,v,0,0.7930622254871196,908594,001,2022-09-30_11h52.11.606,Sequential_routine,2022.2.4,59.796997747215734,
-150,z,,,,,17,3,71,3,509.440703507576,510.42769703362046,510.42769703362046,510.42769703362046,510.42769703362046,510.44438604890684,511.4308811836295,511.4308811836295,z,1,0.542644886902508,908594,001,2022-09-30_11h52.11.606,Sequential_routine,2022.2.4,59.796997747215734,
-50,x,,,,,18,0,72,0,511.9995450783026,512.9866004881878,512.9866004881878,512.9866004881878,512.9866004881878,513.003384593278,513.9898863691933,513.9898863691933,x,1,0.44851805581993176,908594,001,2022-09-30_11h52.11.606,Sequential_routine,2022.2.4,59.796997747215734,
-50,x,,,,,18,1,73,0,514.4584505856023,515.4448868552081,515.4448868552081,515.4448868552081,515.4448868552081,515.461704468134,516.4480891175604,516.4480891175604,x,1,0.6300064557694895,908594,001,2022-09-30_11h52.11.606,Sequential_routine,2022.2.4,59.796997747215734,
-50,x,,,,,18,2,74,0,517.1006632740232,518.0877579273197,518.0877579273197,518.0877579273197,518.0877579273197,518.104313515008,519.0908494025039,519.0908494025039,x,1,0.4835011419095281,908594,001,2022-09-30_11h52.11.606,Sequential_routine,2022.2.4,59.796997747215734,
150,v,,,,,18,3,75,1,519.5927469723706,520.5799653933486,520.5799653933486,520.5799653933486,520.5799653933486,520.5966990857492,521.5828947630571,521.5828947630571,v,1,0.7757208639577584,908594,001,2022-09-30_11h52.11.606,Sequential_routine,2022.2.4,59.796997747215734,
150,v,,,,,19,0,76,1,522.3858354831677,523.3729011567143,523.3729011567143,523.3729011567143,523.3729011567143,523.3896909973801,524.3759132394589,524.3759132394589,v,1,0.5268889591852712,908594,001,2022-09-30_11h52.11.606,Sequential_routine,2022.2.4,59.796997747215734,
150,v,,,,,19,1,77,1,524.9284505071155,525.9151364251907,525.9151364251907,525.9151364251907,525.9151364251907,525.9319033235547,526.9187181411421,526.9187181411421,v,1,0.5114095465805804,908594,001,2022-09-30_11h52.11.606,Sequential_routine,2022.2.4,59.796997747215734,
-150,z,,,,,19,2,78,3,527.4538621252177,528.4400587081432,528.4400587081432,528.4400587081432,528.4400587081432,528.456802664205,529.4441047038358,529.4441047038358,z,1,0.44947136883956773,908594,001,2022-09-30_11h52.11.606,Sequential_routine,2022.2.4,59.796997747215734,
-50,x,,,,,19,3,79,0,529.9124198755198,530.8986424194709,530.8986424194709,530.8986424194709,530.8986424194709,530.9153570939106,531.9026008721694,531.9026008721694,x,1,0.632813869030997,908594,001,2022-09-30_11h52.11.606,Sequential_routine,2022.2.4,59.796997747215734,
150,v,,,,,20,0,80,1,532.5544330262887,533.5411002282758,533.5411002282758,533.5411002282758,533.5411002282758,533.557856862978,534.5449596668295,534.5449596668295,v,1,0.8377997142342792,908594,001,2022-09-30_11h52.11.606,Sequential_routine,2022.2.4,59.796997747215734,
-50,x,,,,,20,1,81,0,535.4143059742355,536.4010580023655,536.4010580023655,536.4010580023655,536.4010580023655,536.4178735021846,537.4045696839212,537.4045696839212,x,1,0.4571428519807341,908594,001,2022-09-30_11h52.11.606,Sequential_routine,2022.2.4,59.796997747215734,
-50,x,,,,,20,2,82,0,537.8902180665796,538.8763083904223,538.8763083904223,538.8763083904223,538.8763083904223,538.8930695532108,539.8802487307776,539.8802487307776,x,1,0.5097229855168735,908594,001,2022-09-30_11h52.11.606,Sequential_routine,2022.2.4,59.796997747215734,
150,v,,,,,20,3,83,1,540.4153899980015,541.4019476203098,541.4019476203098,541.4019476203098,541.4019476203098,541.4186046371219,542.4053370435463,542.4053370435463,v,1,0.7850254767490696,908594,001,2022-09-30_11h52.11.606,Sequential_routine,2022.2.4,59.796997747215734,
50,c,,,,,21,0,84,2,543.2081422229521,544.1954050191716,544.1954050191716,544.1954050191716,544.1954050191716,544.212126334804,545.1983005791722,545.1983005791722,c,1,1.1756389961642526,908594,001,2022-09-30_11h52.11.606,Sequential_routine,2022.2.4,59.796997747215734,
-150,z,,,,,21,1,85,3,546.4028816134955,547.3894470844862,547.3894470844862,547.3894470844862,547.3894470844862,547.4061527027538,548.3927758313716,548.3927758313716,z,1,0.5735852978955336,908594,001,2022-09-30_11h52.11.606,Sequential_routine,2022.2.4,59.796997747215734,
-150,z,,,,,21,2,86,3,548.9949040921215,549.9816452528453,549.9816452528453,549.9816452528453,549.9816452528453,549.9985479937864,550.9853114930665,550.9853114930665,z,1,0.556735988368473,908594,001,2022-09-30_11h52.11.606,Sequential_routine,2022.2.4,59.796997747215734,
50,c,,,,,21,3,87,2,551.5705032031678,552.5575450287956,552.5575450287956,552.5575450287956,552.5575450287956,552.5744996917883,553.5608958123657,553.5608958123657,v,0,0.8451995122213702,908594,001,2022-09-30_11h52.11.606,Sequential_routine,2022.2.4,59.796997747215734,
-50,x,,,,,22,0,88,0,554.4304495061065,555.4171749694656,555.4171749694656,555.4171749694656,555.4171749694656,555.4339171142929,556.421250548653,556.421250548653,x,1,0.8491582667925286,908594,001,2022-09-30_11h52.11.606,Sequential_routine,2022.2.4,59.796997747215734,
50,c,,,,,22,1,89,2,557.2905434246454,558.2772100228876,558.2772100228876,558.2772100228876,558.2772100228876,558.2936838031574,559.2814024266918,559.2814024266918,c,1,0.5164384387871905,908594,001,2022-09-30_11h52.11.606,Sequential_routine,2022.2.4,59.796997747215734,
150,v,,,,,22,2,90,1,559.8161246950331,560.802657563805,560.802657563805,560.802657563805,560.802657563805,560.8191838698713,561.8062803344019,561.8062803344019,v,1,0.7274218847092015,908594,001,2022-09-30_11h52.11.606,Sequential_routine,2022.2.4,59.796997747215734,
-150,z,,,,,22,3,91,3,562.5587673101177,563.5454933772216,563.5454933772216,563.5454933772216,563.5454933772216,563.562264803671,564.549024680483,564.549024680483,z,1,0.4648514654263636,908594,001,2022-09-30_11h52.11.606,Sequential_routine,2022.2.4,59.796997747215734,
-150,z,,,,,23,0,92,3,565.0344170753515,566.0206999937814,566.0206999937814,566.0206999937814,566.0206999937814,566.0375622838214,567.0243309149328,567.0243309149328,z,1,0.6616580781224002,908594,001,2022-09-30_11h52.11.606,Sequential_routine,2022.2.4,59.796997747215734,
50,c,,,,,23,1,93,2,567.7102674046037,568.6968301587426,568.6968301587426,568.6968301587426,568.6968301587426,568.7134920055132,569.7008067237848,569.7008067237848,c,1,0.848677685941766,908594,001,2022-09-30_11h52.11.606,Sequential_routine,2022.2.4,59.796997747215734,
-150,z,,,,,23,2,94,3,570.5709883121044,571.5572667024485,571.5572667024485,571.5572667024485,571.5572667024485,571.5742092905452,572.5602603709767,572.5602603709767,z,1,0.5815311830428982,908594,001,2022-09-30_11h52.11.606,Sequential_routine,2022.2.4,59.796997747215734,
-50,x,,,,,23,3,95,0,573.1622440348506,574.1491925819082,574.1491925819082,574.1491925819082,574.1491925819082,574.1661227932373,575.1524929527886,575.1524929527886,x,1,0.48631791321531637,908594,001,2022-09-30_11h52.11.606,Sequential_routine,2022.2.4,59.796997747215734,
